File: Cu2NCN-XRD.txt
5.000	13096
5.060	12090
5.120	10986
5.180	10885
5.240	10849
5.300	10911
5.360	10909
5.420	10760
5.480	10722
5.540	10955
5.600	11071
5.660	10983
5.720	10748
5.780	10999
5.840	11074
5.900	11230
5.960	11165
6.020	10962
6.080	11133
6.140	11103
6.200	11100
6.260	11287
6.320	11120
6.380	11204
6.440	11413
6.500	11217
6.560	11232
6.620	11264
6.680	11395
6.740	11419
6.800	11342
6.860	11624
6.920	11567
6.980	11399
7.040	11619
7.100	11630
7.160	11889
7.220	12150
7.280	12158
7.340	12299
7.400	12456
7.460	12501
7.520	12900
7.580	13182
7.640	13666
7.700	14462
7.760	15591
7.820	17271
7.880	19901
7.940	23309
8.000	28978
8.060	37231
8.120	48725
8.181	63653
8.241	75085
8.301	69730
8.361	49259
8.421	33183
8.481	24177
8.541	19744
8.601	17572
8.661	16114
8.721	15061
8.781	14404
8.841	13997
8.901	13628
8.961	13548
9.021	13361
9.081	13188
9.141	13051
9.201	12910
9.261	12922
9.321	12694
9.381	12678
9.441	12668
9.501	12472
9.561	12477
9.621	12398
9.681	12298
9.741	12173
9.801	11893
9.861	12051
9.921	12148
9.981	12078
10.041	11927
10.101	11901
10.161	12088
10.221	12339
10.281	12033
10.341	11801
10.401	11965
10.461	11849
10.521	11848
10.581	11765
10.641	11900
10.701	11867
10.761	11677
10.821	11796
10.881	11665
10.941	11795
11.001	11835
11.061	11899
11.121	11882
11.181	11854
11.241	12056
11.301	11869
11.361	11886
11.421	12047
11.481	12047
11.541	11593
11.601	11751
11.661	12080
11.721	11929
11.781	11823
11.841	11869
11.901	11752
11.961	11577
12.021	11721
12.081	11953
12.141	11759
12.201	11915
12.261	11623
12.321	11605
12.381	11754
12.441	11699
12.501	11822
12.561	11840
12.621	12044
12.681	11673
12.741	11704
12.801	11848
12.861	11674
12.921	11963
12.981	11704
13.041	11665
13.101	11808
13.161	11643
13.221	11852
13.281	11839
13.341	11819
13.401	11836
13.461	11848
13.521	11772
13.581	11837
13.641	11750
13.701	11989
13.761	11736
13.821	11843
13.881	11781
13.941	11901
14.001	11853
14.061	11825
14.121	11823
14.181	11727
14.241	11619
14.301	11832
14.361	11663
14.422	11839
14.482	11789
14.542	11790
14.602	12098
14.662	11708
14.722	11923
14.782	11727
14.842	11737
14.902	11836
14.962	11899
15.022	11979
15.082	12004
15.142	11791
15.202	11864
15.262	11868
15.322	11841
15.382	11915
15.442	11681
15.502	11765
15.562	11725
15.622	11840
15.682	11824
15.742	11708
15.802	11926
15.862	12112
15.922	12015
15.982	12206
16.042	12299
16.102	12495
16.162	13019
16.222	12985
16.282	13484
16.342	14241
16.402	15380
16.462	17606
16.522	20349
16.582	21427
16.642	19412
16.702	16881
16.762	14581
16.822	13530
16.882	12806
16.942	12527
17.002	12468
17.062	12251
17.122	12233
17.182	12106
17.242	11996
17.302	12059
17.362	11921
17.422	11747
17.482	11777
17.542	11776
17.602	11925
17.662	11910
17.722	11682
17.782	11729
17.842	11837
17.902	11898
17.962	11752
18.022	11850
18.082	11883
18.142	11748
18.202	11825
18.262	11612
18.322	11991
18.382	11701
18.442	11997
18.502	11730
18.562	11682
18.622	11788
18.682	11767
18.742	11693
18.802	11583
18.862	11749
18.922	11671
18.982	11742
19.042	11622
19.102	11821
19.162	11993
19.222	11752
19.282	11674
19.342	11577
19.402	11547
19.462	11650
19.522	11642
19.582	11759
19.642	11749
19.702	11727
19.762	11967
19.822	11808
19.882	11433
19.942	11753
20.002	11646
20.062	11854
20.122	11709
20.182	11712
20.242	11561
20.302	11701
20.362	11623
20.422	11642
20.482	11768
20.542	11473
20.602	11557
20.663	11644
20.723	11565
20.783	11756
20.843	11683
20.903	11759
20.963	11713
21.023	11533
21.083	11422
21.143	11704
21.203	11701
21.263	11701
21.323	11630
21.383	11586
21.443	11717
21.503	11762
21.563	11653
21.623	11702
21.683	11724
21.743	12144
21.803	12032
21.863	11901
21.923	12261
21.983	12576
22.043	12753
22.103	12430
22.163	12060
22.223	11820
22.283	11718
22.343	11804
22.403	11880
22.463	11697
22.523	11669
22.583	11566
22.643	11753
22.703	11714
22.763	11533
22.823	11806
22.883	11826
22.943	11775
23.003	11735
23.063	11652
23.123	11449
23.183	11646
23.243	11624
23.303	11790
23.363	11537
23.423	11701
23.483	11783
23.543	11629
23.603	11701
23.663	11891
23.723	11712
23.783	11881
23.843	11605
23.903	11687
23.963	11822
24.023	11901
24.083	11835
24.143	11846
24.203	11713
24.263	11826
24.323	12053
24.383	11997
24.443	12416
24.503	12413
24.563	12344
24.623	12607
24.683	13122
24.743	13888
24.803	15027
24.863	16711
24.923	18127
24.983	18649
25.043	16904
25.103	15168
25.163	14078
25.223	13017
25.283	12610
25.343	12323
25.403	12346
25.463	12012
25.523	12188
25.583	11962
25.643	12139
25.703	12022
25.763	12330
25.823	12450
25.883	12806
25.943	13088
26.003	13617
26.063	14574
26.123	15492
26.183	16359
26.243	16108
26.303	14618
26.363	13774
26.423	12928
26.483	12302
26.543	12074
26.603	12049
26.663	11891
26.723	11999
26.783	12006
26.843	11796
26.904	11812
26.964	11915
27.024	11688
27.084	11746
27.144	11830
27.204	11886
27.264	11767
27.324	11655
27.384	11948
27.444	12043
27.504	11904
27.564	11767
27.624	12071
27.684	12024
27.744	12038
27.804	12335
27.864	12478
27.924	12643
27.984	12737
28.044	13067
28.104	13653
28.164	14526
28.224	15743
28.284	16187
28.344	16308
28.404	16259
28.464	16803
28.524	17948
28.584	19164
28.644	21118
28.704	23007
28.764	24111
28.824	23734
28.884	21509
28.944	19271
29.004	17654
29.064	16402
29.124	15426
29.184	15031
29.244	15106
29.304	15193
29.364	15560
29.424	16077
29.484	16407
29.544	16109
29.604	15569
29.664	15234
29.724	14963
29.784	15312
29.844	15622
29.904	16134
29.964	17878
30.024	20418
30.084	23023
30.144	23919
30.204	22748
30.264	19529
30.324	16651
30.384	14743
30.444	13882
30.504	13125
30.564	12910
30.624	12498
30.684	12312
30.744	12376
30.804	12077
30.864	11841
30.924	12187
30.984	12032
31.044	11997
31.104	12185
31.164	12010
31.224	12003
31.284	12078
31.344	11937
31.404	11826
31.464	11756
31.524	12015
31.584	11847
31.644	11906
31.704	11865
31.764	11773
31.824	11913
31.884	11870
31.944	11785
32.004	12055
32.064	12276
32.124	12115
32.184	12191
32.244	12017
32.304	12080
32.364	12276
32.424	12613
32.484	12687
32.544	12941
32.604	12782
32.664	13284
32.724	13633
32.784	13898
32.844	14227
32.904	14108
32.964	14673
33.024	14281
33.084	14263
33.145	13846
33.205	14174
33.265	14017
33.325	13930
33.385	13537
33.445	13657
33.505	13460
33.565	13260
33.625	12601
33.685	12656
33.745	12489
33.805	12169
33.865	12213
33.925	12447
33.985	12163
34.045	12069
34.105	12081
34.165	11871
34.225	12025
34.285	12078
34.345	11932
34.405	11973
34.465	12009
34.525	12025
34.585	12090
34.645	12008
34.705	12194
34.765	12325
34.825	12418
34.885	12290
34.945	12442
35.005	12566
35.065	12489
35.125	12605
35.185	12598
35.245	12816
35.305	12919
35.365	13185
35.425	13188
35.485	13673
35.545	14327
35.605	15159
35.665	16403
35.725	17459
35.785	19813
35.845	22561
35.905	26442
35.965	31160
36.025	37638
36.085	42514
36.145	42533
36.205	37798
36.265	32145
36.325	28025
36.385	25285
36.445	25361
36.505	27053
36.565	29514
36.625	30203
36.685	27532
36.745	23556
36.805	20153
36.865	17110
36.925	15907
36.985	14682
37.045	13963
37.105	13667
37.165	13457
37.225	13265
37.285	13215
37.345	13212
37.405	13296
37.465	13186
37.525	13275
37.585	13619
37.645	13705
37.705	13816
37.765	14203
37.825	14484
37.885	14886
37.945	15326
38.005	15583
38.065	15442
38.125	15611
38.185	14835
38.245	14532
38.305	13824
38.365	13613
38.425	13275
38.485	12998
38.545	12754
38.605	12739
38.665	12698
38.725	12378
38.785	12460
38.845	12403
38.905	12486
38.965	12412
39.025	12313
39.085	12395
39.145	12447
39.205	12236
39.265	12650
39.325	12582
39.386	12407
39.446	12507
39.506	12530
39.566	12481
39.626	12265
39.686	12066
39.746	12101
39.806	12045
39.866	12075
39.926	11967
39.986	11906
40.046	11960
40.106	11821
40.166	11806
40.226	12030
40.286	11991
40.346	11777
40.406	11916
40.466	11765
40.526	11585
40.586	11860
40.646	11774
40.706	11880
40.766	11681
40.826	11735
40.886	11598
40.946	11663
41.006	11854
41.066	11917
41.126	11708
41.186	11764
41.246	11661
41.306	11822
41.366	11595
41.426	11774
41.486	11696
41.546	11719
41.606	11957
41.666	11750
41.726	11802
41.786	11967
41.846	11857
41.906	11781
41.966	11943
42.026	12087
42.086	12039
42.146	12078
42.206	12166
42.266	12128
42.326	12351
42.386	11994
42.446	11913
42.506	12076
42.566	12096
42.626	12077
42.686	12089
42.746	11964
42.806	12245
42.866	11870
42.926	12112
42.986	12076
43.046	12263
43.106	12470
43.166	12290
43.226	12361
43.286	12630
43.346	12861
43.406	12994
43.466	13313
43.526	13623
43.586	13763
43.646	14426
43.706	14993
43.766	15723
43.826	16684
43.886	17826
43.946	18880
44.006	19661
44.066	19227
44.126	19020
44.186	17948
44.246	17665
44.306	17180
44.366	16899
44.426	16456
44.486	16375
44.546	16369
44.606	16275
44.666	16633
44.726	16724
44.786	16727
44.846	17165
44.906	17045
44.966	16596
45.026	16166
45.086	15003
45.146	14352
45.206	13850
45.266	13314
45.326	12951
45.386	12771
45.446	12649
45.506	12404
45.566	12449
45.626	12326
45.687	12068
45.747	12019
45.807	12163
45.867	12236
45.927	12165
45.987	12167
46.047	12528
46.107	12145
46.167	12389
46.227	12521
46.287	12752
46.347	12539
46.407	12782
46.467	12880
46.527	12586
46.587	12419
46.647	12180
46.707	12060
46.767	12103
46.827	12004
46.887	12171
46.947	11972
47.007	11971
47.067	12056
47.127	11816
47.187	11658
47.247	11650
47.307	11768
47.367	11624
47.427	11887
47.487	11878
47.547	11439
47.607	11667
47.667	11483
47.727	11655
47.787	11782
47.847	11609
47.907	11656
47.967	11689
48.027	11600
48.087	11805
48.147	11689
48.207	11687
48.267	11663
48.327	11577
48.387	11729
48.447	11590
48.507	11541
48.567	11565
48.627	11874
48.687	11919
48.747	11947
48.807	11952
48.867	11784
48.927	11799
48.987	11598
49.047	11722
49.107	11795
49.167	11507
49.227	11650
49.287	11375
49.347	11590
49.407	11721
49.467	11604
49.527	11766
49.587	11571
49.647	11673
49.707	11718
49.767	11620
49.827	11793
49.887	11793
49.947	11996
50.007	11923
50.067	12123
50.127	12226
50.187	12262
50.247	12457
50.307	12402
50.367	12587
50.427	12509
50.487	12354
50.547	12428
50.607	12107
50.667	12296
50.727	12188
50.787	12364
50.847	12158
50.907	12469
50.967	12608
51.027	12718
51.087	13289
51.147	13185
51.207	13473
51.267	13353
51.327	13477
51.387	12828
51.447	12653
51.507	12434
51.567	12188
51.627	12282
51.687	12190
51.747	12227
51.807	12093
51.867	12187
51.928	12317
51.988	12480
52.048	12182
52.108	12320
52.168	12265
52.228	12217
52.288	11849
52.348	11871
52.408	11860
52.468	11873
52.528	11863
52.588	11680
52.648	11889
52.708	11971
52.768	11995
52.828	11999
52.888	12228
52.948	12220
53.008	12397
53.068	12376
53.128	12624
53.188	12592
53.248	12714
53.308	12441
53.368	12450
53.428	12244
53.488	12042
53.548	12113
53.608	11863
53.668	11901
53.728	11711
53.788	11749
53.848	11949
53.908	11657
53.968	11845
54.028	11648
54.088	11609
54.148	11741
54.208	11695
54.268	11641
54.328	11601
54.388	11715
54.448	11574
54.508	11439
54.568	11508
54.628	11544
54.688	11420
54.748	11811
54.808	11478
54.868	11593
54.928	11480
54.988	11456
55.048	11366
55.108	11449
55.168	11425
55.228	11117
55.288	11388
55.348	11493
55.408	11400
55.468	11511
55.528	11447
55.588	11346
55.648	11506
55.708	11488
55.768	11588
55.828	11644
55.888	11418
55.948	11477
56.008	11619
56.068	11764
56.128	11722
56.188	11655
56.248	11967
56.308	12022
56.368	11790
56.428	11885
56.488	12038
56.548	11849
56.608	11717
56.668	11773
56.728	11668
56.788	11543
56.848	11771
56.908	11536
56.968	11694
57.028	11623
57.088	11764
57.148	11496
57.208	11614
57.268	11821
57.328	11551
57.388	11826
57.448	11490
57.508	11747
57.568	11761
57.628	11674
57.688	11756
57.748	11997
57.808	11802
57.868	11997
57.928	12087
57.988	12263
58.048	12303
58.108	12477
58.169	12825
58.229	12869
58.289	13342
58.349	13401
58.409	13578
58.469	13888
58.529	13626
58.589	13906
58.649	13551
58.709	13263
58.769	13481
58.829	13050
58.889	13123
58.949	13424
59.009	13323
59.069	13243
59.129	13727
59.189	14148
59.249	14406
59.309	14772
59.369	14772
59.429	15181
59.489	15186
59.549	15336
59.609	15516
59.669	15081
59.729	15267
59.789	14544
59.849	14094
59.909	13727
59.969	13561
60.029	13074
60.089	12980
60.149	12709
60.209	12825
60.269	12475
60.329	12688
60.389	12600
60.449	12484
60.509	12603
60.569	12497
60.629	12125
60.689	12143
60.749	11930
60.809	11963
60.869	11894
60.929	12054
60.989	11953
61.049	11567
61.109	11872
61.169	11746
61.229	11829
61.289	11705
61.349	11685
61.409	11609
61.469	11628
61.529	11559
61.589	11621
61.649	11603
61.709	11725
61.769	11479
61.829	11414
61.889	11635
61.949	11582
62.009	11611
62.069	11753
62.129	11721
62.189	11678
62.249	11579
62.309	11658
62.369	11770
62.429	11785
62.489	11796
62.549	11873
62.609	11986
62.669	11773
62.729	11752
62.789	11682
62.849	11863
62.909	11782
62.969	11851
63.029	11894
63.089	11759
63.149	11580
63.209	11723
63.269	11624
63.329	11733
63.389	11882
63.449	11761
63.509	11874
63.569	11801
63.629	11843
63.689	11869
63.749	11935
63.809	11918
63.869	11932
63.929	12036
63.989	12345
64.049	11923
64.109	12221
64.169	12230
64.229	12517
64.289	12552
64.349	12379
64.410	12302
64.470	12396
64.530	12225
64.590	12100
64.650	12195
64.710	11843
64.770	11815
64.830	11938
64.890	11776
64.950	11657
65.010	11679
65.070	11508
65.130	11582
65.190	11664
65.250	11385
65.310	11465
65.370	11647
65.430	11581
65.490	11442
65.550	11502
65.610	11458
65.670	11575
65.730	11517
65.790	11475
65.850	11616
65.910	11331
65.970	11370
66.030	11534
66.090	11725
66.150	11325
66.210	11289
66.270	11480
66.330	11490
66.390	11412
66.450	11391
66.510	11647
66.570	11596
66.630	11774
66.690	11500
66.750	11855
66.810	11491
66.870	11678
66.930	11849
66.990	11670
67.050	11811
67.110	11785
67.170	11812
67.230	11951
67.290	11955
67.350	11802
67.410	11808
67.470	12037
67.530	12043
67.590	11938
67.650	11872
67.710	11838
67.770	11893
67.830	12118
67.890	12108
67.950	11879
68.010	11950
68.070	12092
68.130	12174
68.190	12034
68.250	11887
68.310	11949
68.370	12183
68.430	11897
68.490	11846
68.550	11697
68.610	11896
68.670	11864
68.730	11775
68.790	11668
68.850	11807
68.910	11576
68.970	11594
69.030	11843
69.090	11677
69.150	11675
69.210	11657
69.270	11684
69.330	11873
69.390	11915
69.450	11888
69.510	12267
69.570	12072
69.630	11989
69.690	12083
69.750	12436
69.810	12325
69.870	12456
69.930	12626
69.990	12787
70.050	12724
70.110	12809
70.170	12958
70.230	13031
70.290	13311
70.350	13106
70.410	13051
70.470	12814
70.530	12962
70.590	12453
70.650	12808
70.711	12634
70.771	12474
70.831	12580
70.891	12345
70.951	12470
71.011	12223
71.071	12471
71.131	12261
71.191	12275
71.251	12222
71.311	12106
71.371	12059
71.431	12123
71.491	12111
71.551	11873
71.611	11800
71.671	12037
71.731	11870
71.791	11754
71.851	11904
71.911	11672
71.971	11761
72.031	11585
72.091	11718
72.151	11627
72.211	11616
72.271	11777
72.331	12007
72.391	11533
72.451	11716
72.511	11578
72.571	11628
72.631	11735
72.691	11515
72.751	11498
72.811	11604
72.871	11534
72.931	11499
72.991	11411
73.051	11495
73.111	11499
73.171	11388
73.231	11495
73.291	11294
73.351	11314
73.411	11435
73.471	11634
73.531	11179
73.591	11506
73.651	11438
73.711	11505
73.771	11415
73.831	11221
73.891	11421
73.951	11447
74.011	11303
74.071	11465
74.131	11602
74.191	11477
74.251	11421
74.311	11460
74.371	11526
74.431	11498
74.491	11404
74.551	11490
74.611	11277
74.671	11489
74.731	11515
74.791	11379
74.851	11360
74.911	11760
74.971	11623
75.031	11781
75.091	11881
75.151	11858
75.211	11728
75.271	11923
75.331	12118
75.391	12142
75.451	12205
75.511	12205
75.571	12473
75.631	12682
75.691	12874
75.751	12711
75.811	12951
75.871	12824
75.931	13139
75.991	13159
76.051	13240
76.111	12854
76.171	13025
76.231	13034
76.291	13125
76.351	12780
76.411	12744
76.471	12657
76.531	12773
76.591	12832
76.651	13033
76.711	12953
76.771	12543
76.831	12484
76.892	12566
76.952	12435
77.012	12296
77.072	12236
77.132	12313
77.192	12263
77.252	12173
77.312	12039
77.372	11856
77.432	11975
77.492	11803
77.552	12047
77.612	11972
77.672	12053
77.732	12091
77.792	12142
77.852	12147
77.912	12041
77.972	12037
78.032	11852
78.092	11923
78.152	11699
78.212	11698
78.272	11674
78.332	11493
78.392	11547
78.452	11315
78.512	11410
78.572	11208
78.632	11242
78.692	11413
78.752	11361
78.812	11482
78.872	11243
78.932	11289
78.992	11295
79.052	11374
79.112	11475
79.172	11424
79.232	11450
79.292	11306
79.352	11340
79.412	11206
79.472	11177
79.532	11199
79.592	11264
79.652	11385
79.712	11332
79.772	11082
79.832	11282
79.892	11171
79.952	11208
79.992	11348